Folder: Solar-Analysis-App/Data/8-Pixel Device/backward/devices/sample 2[2]

Note: README.md
# Solar Analysis Project

This project is designed to analyze solar cell data, process photovoltaic parameters, and generate reports using Python. It utilizes a virtual environment to manage dependencies, ensuring a consistent setup across different systems.

## Features
**Data Analysis**: Analyze photovoltaic measurement data from solar cells.
**Report Generation**: Create PDF reports with results and graphs.
**Virtual Environment**: Ensures proper package installation without system-wide impact.

## Requirements
**Python**: Python 3.6 or higher
**Operating System**: Windows or macOS
**Dependencies**: Listed in requirements.txt

## Installation
### 1. Clone the Repository
First, clone the project repository to your local machine. Open a terminal and run:

```bash
git https://github.com/Smart-Energy-Materials-Group-UTU/Solar-Analysis-App.git

cd Solar-Analysis-App
```

### 2. Set Up the Virtual Environment
The project uses a virtual environment to manage dependencies. The provided scripts will automatically set up the environment for you.

#### **Windows**:

- Double-click the launch.bat file to set up the virtual environment and run the application.

- If the virtual environment does not exist, the script will create it and install the dependencies listed in requirements.txt.

#### **macOS/Linux**:

1. Open a terminal and navigate to the project directory.

2. Run the launch.sh script to set up the virtual environment and run the application.

```bash
chmod +x launch.sh  # Make the script executable
./launch.sh  # Run the script
```

The script will:
- Check if the virtual environment exists.
- Install dependencies from requirements.txt.
- Run the main application script main_algorithm.py.

## Dependencies
The project requires the following Python packages, which will be installed automatically using the requirements.txt file:
- `numpy`
- `matplotlib`
- `pandas`
- `scipy`
- `openpyxl`
- `seaborn`
- And many more as specified in requirements.txt.

## Usage
After running the appropriate launch script (launch.bat for Windows or launch.sh for macOS/Linux), the application will:
- Activate the virtual environment.
- Launch the main algorithm script (main_algorithm.py).

## Deactivating the Virtual Environment
Once the analysis is complete, the virtual environment will automatically be deactivated.

## Virtual Environment Issues
If you encounter issues with the virtual environment, ensure you have Python 3.6 or higher installed on your system. You can check your Python version by running:

```bash
python --version  # or python3 --version on macOS/Linux
```
If the virtual environment setup fails, you can create it manually by running:

```bash
# Windows (in PowerShell or Command Prompt)
python -m venv thesis

# macOS/Linux
python3 -m venv thesis
```
Then activate the environment manually:

Windows: thesis\Scripts\activate

macOS/Linux: source thesis/bin/activate

## Package Installation Issues
If you encounter issues installing dependencies, ensure tha

File: sample 2[2]_17_0_Set light intensity.csv
#ID:	2
#type:	Set light intensity
#start_time:	16/04/2025 17.46.08
#
# Parameters
#Sample area:	0.25 cm²
#Comment:
#Resolution of the measurement unit:	10 (higher better/slower)
##Sample holder climate : temperature:	[32.808,32.808] °C
##Sample holder climate : relative humidity:	[30.803,30.803] %
##IR temperature [0]:	[34.89,34.89] °C
##Stage temperature:	[33.9076,33.9076] °C
##Light intensity:	[0,100] %
#
#wavelength (nm),intensity (W/m2/nm)
330,0
335.937,7.4997E-5
341.875,0.0109497
347.812,3.33631E-5
353.75,0.0931337
359.687,0.631555
365.625,2.49153
371.562,3.09967
377.5,2.77248
383.437,2.4844
389.375,3.07514
395.312,3.61415
401.25,2.36688
407.187,2.52136
413.125,4.47469
419.062,5.76199
425,4.20367
430.937,4.42911
436.875,6.5567
442.812,8.04744
448.75,5.78104
454.687,4.88348
460.625,4.83573
466.562,5.5511
472.5,4.91446
478.437,4.03969
484.375,3.73268
490.312,3.70643
496.25,3.83102
502.187,4.17036
508.125,4.43732
514.062,4.57365
520,4.65778
525.937,4.7971
531.875,4.78724
537.812,4.83849
543.75,4.8875
549.687,4.87144
555.625,4.71831
561.562,4.43514
567.5,4.2421
573.437,4.05695
579.375,3.94958
585.312,3.87773
591.25,3.77659
597.187,3.59674
603.125,3.44395
609.062,3.20366
615,3.14209
620.937,3.04353
626.875,2.95856
632.812,2.91423
638.75,2.8764
644.687,2.71788
650.625,2.67798
656.562,2.40528
662.5,1.94552
668.437,1.74875
674.375,1.93073
680.312,2.26966
686.25,2.61429
692.187,2.5228
698.125,2.23985
704.062,2.65619
710,3.19033
715.937,3.40664
721.875,3.53203
727.812,3.93066
733.75,4.84007
739.687,5.32768
745.625,5.2603
751.562,5.74602
757.5,7.95
763.437,8.60017
769.375,7.37083
775.312,5.25857
781.25,4.07125
787.187,3.11209
793.125,2.93035
799.062,3.30756
805,4.11701
810.937,3.72071
816.875,2.79495
822.812,2.49972
828.75,2.08108
834.687,1.65823
840.625,1.69837
846.562,1.64157
852.5,2.13638
858.437,2.61183
864.375,2.76477
870.312,2.67548
876.25,2.41203
882.187,2.40199
888.125,2.04711
894.062,1.54736
900,1.30509
905.937,1.04728
911.875,0.816853
917.812,0.635262
923.75,0.492122
929.687,0.362005
935.625,0.361213
941.562,0.380594
947.5,0.346048
953.437,0.419934
959.375,0.608938
965.313,0.779528
971.25,0.921602
977.188,0.944231
983.125,0.911543
989.062,0.942789
995,0.965333
1000.94,0.983644
1006.87,1.05569
1012.81,1.17735
1018.75,1.34772
1024.69,1.55794
1030.62,1.79815
1036.56,1.93351
1042.5,1.91872
1048.44,1.96447
1054.37,1.96848
1060.31,2.06239
1066.25,2.11701
1072.19,1.92121
1078.12,1.07599
1084.06,0.358959
1090,4.29206E-6
1095.94,2.70291E-6
1101.87,1.85317E-6
1107.81,1.4058E-6
1113.75,1.20691E-6
1119.69,1.17076E-6
1125.62,1.26029E-6
1131.56,1.30677E-6
1137.5,1.36114E-6
1143.44,1.40454E-6
1149.37,1.39382E-6
1155.31,1.31541E-6
1161.25,1.19818E-6
1167.19,1.12334E-6
1173.12,1.16406E-6
1179.06,1.42647E-6
1185,1.9502E-6
1190.94,2.58991E-6
1196.87,2.91798E-6
1202.81,3.7467E-6
1208.75,4.09393E-6
1214.69,4.08975E-6
1220.62,3.54641E-6
1226.56,2.67442E-6
1232.5,1.76184E-6
1238.44,7.53337E-7
1244.37,0
1250.31,0
1256.25,0
1262.19,0
1268.12,0
1274.06,0
1280,0
1285.94,0
1291.87,0
1297.81,0