Folder: Solar-Analysis-App/Data/8-Pixel Device/back- & forward/devices/sample 2[1]

Note: README.md
# Solar Analysis Project

This project is designed to analyze solar cell data, process photovoltaic parameters, and generate reports using Python. It utilizes a virtual environment to manage dependencies, ensuring a consistent setup across different systems.

## Features
**Data Analysis**: Analyze photovoltaic measurement data from solar cells.
**Report Generation**: Create PDF reports with results and graphs.
**Virtual Environment**: Ensures proper package installation without system-wide impact.

## Requirements
**Python**: Python 3.6 or higher
**Operating System**: Windows or macOS
**Dependencies**: Listed in requirements.txt

## Installation
### 1. Clone the Repository
First, clone the project repository to your local machine. Open a terminal and run:

```bash
git https://github.com/Smart-Energy-Materials-Group-UTU/Solar-Analysis-App.git

cd Solar-Analysis-App
```

### 2. Set Up the Virtual Environment
The project uses a virtual environment to manage dependencies. The provided scripts will automatically set up the environment for you.

#### **Windows**:

- Double-click the launch.bat file to set up the virtual environment and run the application.

- If the virtual environment does not exist, the script will create it and install the dependencies listed in requirements.txt.

#### **macOS/Linux**:

1. Open a terminal and navigate to the project directory.

2. Run the launch.sh script to set up the virtual environment and run the application.

```bash
chmod +x launch.sh  # Make the script executable
./launch.sh  # Run the script
```

The script will:
- Check if the virtual environment exists.
- Install dependencies from requirements.txt.
- Run the main application script main_algorithm.py.

## Dependencies
The project requires the following Python packages, which will be installed automatically using the requirements.txt file:
- `numpy`
- `matplotlib`
- `pandas`
- `scipy`
- `openpyxl`
- `seaborn`
- And many more as specified in requirements.txt.

## Usage
After running the appropriate launch script (launch.bat for Windows or launch.sh for macOS/Linux), the application will:
- Activate the virtual environment.
- Launch the main algorithm script (main_algorithm.py).

## Deactivating the Virtual Environment
Once the analysis is complete, the virtual environment will automatically be deactivated.

## Virtual Environment Issues
If you encounter issues with the virtual environment, ensure you have Python 3.6 or higher installed on your system. You can check your Python version by running:

```bash
python --version  # or python3 --version on macOS/Linux
```
If the virtual environment setup fails, you can create it manually by running:

```bash
# Windows (in PowerShell or Command Prompt)
python -m venv thesis

# macOS/Linux
python3 -m venv thesis
```
Then activate the environment manually:

Windows: thesis\Scripts\activate

macOS/Linux: source thesis/bin/activate

## Package Installation Issues
If you encounter issues installing dependencies, ensure tha

File: sample 2[1]_1_0_Set light intensity.csv
#ID:	2
#type:	Set light intensity
#start_time:	16/04/2025 16.48.02
#
# Parameters
#Sample area:	0.25 cm²
#Comment:
#Resolution of the measurement unit:	10 (higher better/slower)
##Sample holder climate : temperature:	[21.627,21.627] °C
##Sample holder climate : relative humidity:	[38.428,38.428] %
##IR temperature [0]:	[23.33,23.33] °C
##Stage temperature:	[21.4165,21.4165] °C
##Light intensity:	[0,100] %
#
#wavelength (nm),intensity (W/m2/nm)
330,0
335.937,7.78815E-5
341.875,0.0105117
347.812,4.5353E-5
353.75,0.114244
359.687,0.715256
365.625,2.94795
371.562,3.41394
377.5,2.88973
383.437,2.67949
389.375,3.4288
395.312,3.77445
401.25,2.51141
407.187,2.76383
413.125,4.6487
419.062,5.58679
425,4.01499
430.937,4.47766
436.875,6.86204
442.812,8.33652
448.75,5.75226
454.687,4.76459
460.625,4.82908
466.562,5.55651
472.5,4.86072
478.437,3.88851
484.375,3.58627
490.312,3.63093
496.25,3.80122
502.187,4.22733
508.125,4.51257
514.062,4.67562
520,4.74275
525.937,4.87735
531.875,4.84761
537.812,4.90925
543.75,4.93588
549.687,4.95278
555.625,4.84495
561.562,4.52279
567.5,4.34297
573.437,4.12514
579.375,4.00395
585.312,3.88116
591.25,3.82349
597.187,3.69293
603.125,3.45321
609.062,3.2976
615,3.2306
620.937,3.08847
626.875,2.96331
632.812,2.99365
638.75,2.88298
644.687,2.76919
650.625,2.75078
656.562,2.47533
662.5,2.06765
668.437,1.8631
674.375,2.09319
680.312,2.50248
686.25,2.8667
692.187,2.69802
698.125,2.37798
704.062,2.83055
710,3.38733
715.937,3.65228
721.875,3.85095
727.812,4.32215
733.75,5.36094
739.687,5.80292
745.625,5.31069
751.562,5.77229
757.5,7.97769
763.437,8.61164
769.375,7.35026
775.312,4.48518
781.25,3.41425
787.187,2.85858
793.125,3.03416
799.062,3.60761
805,4.44381
810.937,3.76942
816.875,2.59688
822.812,2.23088
828.75,1.86653
834.687,1.6203
840.625,1.82324
846.562,1.89587
852.5,2.57291
858.437,3.09749
864.375,3.0909
870.312,2.77704
876.25,2.39991
882.187,2.43995
888.125,2.13675
894.062,1.60258
900,1.30158
905.937,1.01071
911.875,0.76986
917.812,0.599395
923.75,0.469824
929.687,0.346131
935.625,0.356032
941.562,0.376174
947.5,0.341236
953.437,0.413933
959.375,0.596604
965.313,0.762978
971.25,0.901001
977.188,0.927796
983.125,0.892985
989.062,0.935668
995,0.980931
1000.94,1.01629
1006.87,1.11621
1012.81,1.26339
1018.75,1.45634
1024.69,1.69309
1030.62,1.94307
1036.56,2.05267
1042.5,2.03907
1048.44,2.06743
1054.37,2.11148
1060.31,2.20928
1066.25,2.18753
1072.19,1.98758
1078.12,1.07641
1084.06,0.381595
1090,2.88966E-6
1095.94,1.81976E-6
1101.87,1.24766E-6
1107.81,9.46464E-7
1113.75,8.1256E-7
1119.69,7.88226E-7
1125.62,8.48501E-7
1131.56,8.79792E-7
1137.5,9.16399E-7
1143.44,9.45615E-7
1149.37,9.38402E-7
1155.31,8.85611E-7
1161.25,8.06685E-7
1167.19,7.56296E-7
1173.12,7.83713E-7
1179.06,9.60385E-7
1185,1.31298E-6
1190.94,1.74368E-6
1196.87,1.96455E-6
1202.81,2.52249E-6
1208.75,2.75627E-6
1214.69,2.75346E-6
1220.62,2.38765E-6
1226.56,1.80057E-6
1232.5,1.18617E-6
1238.44,5.0719E-7
1244.37,0
1250.31,0
1256.25,0
1262.19,0
1268.12,0
1274.06,0
1280,0
1285.94,0
1291.87,0
1297.81,0